  Range (A)
================
 1176.5 1177.9
 1177.9 1179.2
 1179.2 1180.6
 1180.6 1182.0
 1182.0 1183.4
 1183.4 1184.8
 1184.8 1186.2
 1186.2 1187.6
 1187.6 1189.1
 1189.1 1190.5
 1190.5 1191.9
 1191.9 1193.3
 1193.3 1194.7
 1194.7 1196.2
 1196.2 1197.6
 1197.6 1199.0
 1199.0 1200.5
 1200.5 1201.9
 1201.9 1203.4
 1203.4 1204.8
 1204.8 1206.3
 1206.3 1207.7
 1207.7 1209.2
 1209.2 1210.7
 1210.7 1212.1
 1212.1 1213.6
 1213.6 1215.1
 1215.1 1216.5
 1216.5 1218.0
 1218.0 1219.5
 1219.5 1221.0
 1221.0 1222.5
 1222.5 1224.0
 1224.0 1225.5
 1225.5 1227.0
 1227.0 1228.5
 1228.5 1230.0
 1230.0 1231.5
 1231.5 1233.0
 1233.0 1234.6
 1234.6 1236.1
 1236.1 1237.6
 1237.6 1239.2
 1239.2 1240.7
 1240.7 1242.2
 1242.2 1243.8
 1243.8 1245.3
 1245.3 1246.9
 1246.9 1248.4
 1248.4 1250.0
 1250.0 1251.6
 1251.6 1253.1
 1253.1 1254.7
 1254.7 1256.3
 1256.3 1257.9
 1257.9 1259.4
 1259.4 1261.0
 1261.0 1262.6
 1262.6 1264.2
 1264.2 1265.8
 1265.8 1267.4
 1267.4 1269.0
 1269.0 1270.6
 1270.6 1272.3
 1272.3 1273.9
 1273.9 1275.5
 1275.5 1277.1
 1277.1 1278.8
 1278.8 1280.4
 1280.4 1282.1
 1282.1 1283.7
 1283.7 1285.3
 1285.3 1287.0
 1287.0 1288.7
 1288.7 1290.3
 1290.3 1292.0
 1292.0 1293.7
 1293.7 1295.3
 1295.3 1297.0
 1297.0 1298.7
 1298.7 1300.4
 1300.4 1302.1
 1302.1 1303.8
 1303.8 1305.5
 1305.5 1307.2
 1307.2 1308.9
 1308.9 1310.6
 1310.6 1312.3
 1312.3 1314.1
 1314.1 1315.8
 1315.8 1317.5
 1317.5 1319.3
 1319.3 1321.0
 1321.0 1322.8
 1322.8 1324.5
 1324.5 1326.3
 1326.3 1328.0
 1328.0 1329.8
 1329.8 1331.6
 1331.6 1333.3
 1333.3 1335.1
 1335.1 1336.9
 1336.9 1338.7
 1338.7 1340.5
 1340.5 1342.3
 1342.3 1344.1
 1344.1 1345.9
 1345.9 1347.7
 1347.7 1349.5
 1349.5 1351.4
 1351.4 1353.2
 1353.2 1355.0
 1355.0 1356.9
 1356.9 1358.7
 1358.7 1360.5
 1360.5 1362.4
 1362.4 1364.3
 1364.3 1366.1
 1366.1 1368.0
 1368.0 1369.9
 1369.9 1371.7
 1371.7 1373.6
 1373.6 1375.5
 1375.5 1377.4
 1377.4 1379.3
 1379.3 1381.2
 1381.2 1383.1
 1383.1 1385.0
 1385.0 1387.0
 1387.0 1388.9
 1388.9 1390.8
 1390.8 1392.8
 1392.8 1394.7
 1394.7 1396.6
 1396.6 1398.6
 1398.6 1400.6
 1400.6 1402.5
 1402.5 1404.5
 1404.5 1406.5
 1406.5 1408.5
 1408.5 1410.4
 1410.4 1412.4
 1412.4 1414.4
 1414.4 1416.4
 1416.4 1418.4
 1418.4 1420.5
 1420.5 1422.5
 1422.5 1424.5
 1424.5 1426.5
 1426.5 1428.6
 1428.6 1430.6
 1430.6 1432.7
 1432.7 1434.7
 1434.7 1436.8
 1436.8 1438.8
 1438.8 1440.9
 1440.9 1443.0
 1443.0 1445.1
 1445.1 1447.2
 1447.2 1449.3
 1449.3 1451.4
 1451.4 1453.5
 1453.5 1455.6
 1455.6 1457.7
 1457.7 1459.9
 1459.9 1462.0
 1462.0 1464.1
 1464.1 1466.3
 1466.3 1468.4
 1468.4 1470.6
 1470.6 1472.8
 1472.8 1474.9
 1474.9 1477.1
 1477.1 1479.3
 1479.3 1481.5
 1481.5 1483.7
 1483.7 1485.9
 1485.9 1488.1
 1488.1 1490.3
 1490.3 1492.5
 1492.5 1494.8
 1494.8 1497.0
 1497.0 1499.3
 1499.3 1501.5
 1501.5 1503.8
 1503.8 1506.0
 1506.0 1508.3
 1508.3 1510.6
 1510.6 1512.9
 1512.9 1515.2
 1515.2 1517.5
 1517.5 1519.8
 1519.8 1522.1
 1522.1 1524.4
 1524.4 1526.7
 1526.7 1529.1
 1529.1 1531.4
 1531.4 1533.7
 1533.7 1536.1
 1536.1 1538.5
 1538.5 1540.8
 1540.8 1543.2
 1543.2 1545.6
 1545.6 1548.0
 1548.0 1550.4
 1550.4 1552.8
 1552.8 1555.2
 1555.2 1557.6
 1557.6 1560.1
 1560.1 1562.5
 1562.5 1564.9
 1564.9 1567.4
 1567.4 1569.9
 1569.9 1572.3
 1572.3 1574.8
 1574.8 1577.3
 1577.3 1579.8
 1579.8 1582.3
 1582.3 1584.8
 1584.8 1587.3
 1587.3 1589.8
 1589.8 1592.4
 1592.4 1594.9
 1594.9 1597.4
 1597.4 1600.0
 1600.0 1602.6
 1602.6 1605.1
 1605.1 1607.7
 1607.7 1610.3
 1610.3 1612.9
 1612.9 1615.5
 1615.5 1618.1
 1618.1 1620.7
 1620.7 1623.4
 1623.4 1626.0
 1626.0 1628.7
 1628.7 1631.3
 1631.3 1634.0
 1634.0 1636.7
 1636.7 1639.3
 1639.3 1642.0
 1642.0 1644.7
 1644.7 1647.4
 1647.4 1650.2
 1650.2 1652.9
 1652.9 1655.6
 1655.6 1658.4
 1658.4 1661.1
 1661.1 1663.9
 1663.9 1666.7
 1666.7 1669.4
 1669.4 1672.2
 1672.2 1675.0
 1675.0 1677.9
 1677.9 1680.7
 1680.7 1683.5
 1683.5 1686.3
 1686.3 1689.2
 1689.2 1692.0
 1692.0 1694.9
 1694.9 1697.8
 1697.8 1700.7
 1700.7 1703.6
 1703.6 1706.5
 1706.5 1709.4
 1709.4 1712.3
 1712.3 1715.3
 1715.3 1718.2
 1718.2 1721.2
 1721.2 1724.1
 1724.1 1727.1
 1727.1 1730.1
 1730.1 1733.1
 1733.1 1736.1
 1736.1 1739.1
 1739.1 1742.2
 1742.2 1745.2
 1745.2 1748.3
 1748.3 1751.3
 1751.3 1754.4
 1754.4 1757.5
 1757.5 1760.6
 1760.6 1763.7
 1763.7 1766.8
 1766.8 1769.9
 1769.9 1773.0
 1773.0 1776.2
 1776.2 1779.4
 1779.4 1782.5
 1782.5 1785.7
 1785.7 1788.9
 1788.9 1792.1
 1792.1 1795.3
 1795.3 1798.6
 1798.6 1801.8
 1801.8 1805.1
 1805.1 1808.3
 1808.3 1811.6
 1811.6 1814.9
 1814.9 1818.2
 1818.2 1821.5
 1821.5 1824.8
 1824.8 1828.2
 1828.2 1831.5
 1831.5 1834.9
 1834.9 1838.2
 1838.2 1841.6
 1841.6 1845.0
 1845.0 1848.4
 1848.4 1851.9
 1851.9 1855.3
 1855.3 1858.7
 1858.7 1862.2
 1862.2 1865.7
 1865.7 1869.2
 1869.2 1872.7
 1872.7 1876.2
 1876.2 1879.7
 1879.7 1883.2
 1883.2 1886.8
 1886.8 1890.4
 1890.4 1893.9
 1893.9 1897.5
 1897.5 1901.1
 1901.1 1904.8
 1904.8 1908.4
 1908.4 1912.0
 1912.0 1915.7
 1915.7 1919.4
 1919.4 1923.1
 1923.1 1926.8
 1926.8 1930.5
 1930.5 1934.2
 1934.2 1938.0
 1938.0 1941.7
 1941.7 1945.5
 1945.5 1949.3
 1949.3 1953.1
 1953.1 1956.9
 1956.9 1960.8
 1960.8 1964.6
 1964.6 1968.5
 1968.5 1972.4
 1972.4 1976.3
 1976.3 1980.2
 1980.2 1984.1
 1984.1 1988.1
 1988.1 1992.0
 1992.0 1996.0
 1996.0 2000.0
 2000.0 2004.0
 2004.0 2008.0
 2008.0 2012.1
 2012.1 2016.1
 2016.1 2020.2
 2020.2 2024.3
 2024.3 2028.4
 2028.4 2032.5
 2032.5 2036.7
 2036.7 2040.8
 2040.8 2045.0
 2045.0 2049.2
 2049.2 2053.4
 2053.4 2057.6
 2057.6 2061.9
 2061.9 2066.1
 2066.1 2070.4
 2070.4 2074.7
 2074.7 2079.0
 2079.0 2083.3
 2083.3 2087.7
 2087.7 2092.1
 2092.1 2096.4
 2096.4 2100.8
 2100.8 2105.3
 2105.3 2109.7
 2109.7 2114.2
 2114.2 2118.6
 2118.6 2123.1
 2123.1 2127.7
 2127.7 2132.2
 2132.2 2136.8
 2136.8 2141.3
 2141.3 2145.9
 2145.9 2150.5
 2150.5 2155.2
 2155.2 2159.8
 2159.8 2164.5
 2164.5 2169.2
 2169.2 2173.9
 2173.9 2178.6
 2178.6 2183.4
 2183.4 2188.2
 2188.2 2193.0
 2193.0 2197.8
 2197.8 2202.6
 2202.6 2207.5
 2207.5 2212.4
 2212.4 2217.3
 2217.3 2222.2
 2222.2 2227.2
 2227.2 2232.1
 2232.1 2237.1
 2237.1 2242.2
 2242.2 2247.2
 2247.2 2252.3
 2252.3 2257.3
 2257.3 2262.4
 2262.4 2267.6
 2267.6 2272.7
 2272.7 2277.9
 2277.9 2283.1
 2283.1 2288.3
 2288.3 2293.6
 2293.6 2298.9
 2298.9 2304.1
 2304.1 2309.5
 2309.5 2314.8
 2314.8 2320.2
 2320.2 2325.6
 2325.6 2331.0
 2331.0 2336.4
 2336.4 2341.9
 2341.9 2347.4
 2347.4 2352.9
 2352.9 2358.5
 2358.5 2364.1
 2364.1 2369.7
 2369.7 2375.3
 2375.3 2381.0
 2381.0 2386.6
 2386.6 2392.3
 2392.3 2398.1
 2398.1 2403.8
 2403.8 2409.6
 2409.6 2415.5
 2415.5 2421.3
 2421.3 2427.2
 2427.2 2433.1
 2433.1 2439.0
 2439.0 2445.0
 2445.0 2451.0
 2451.0 2457.0
 2457.0 2463.1
 2463.1 2469.1
 2469.1 2475.2
 2475.2 2481.4
 2481.4 2487.6
 2487.6 2493.8
 2493.8 2500.0
 2500.0 2506.3
 2506.3 2512.6
 2512.6 2518.9
 2518.9 2525.3
 2525.3 2531.6
 2531.6 2538.1
 2538.1 2544.5
 2544.5 2551.0
 2551.0 2557.5
 2557.5 2564.1
 2564.1 2570.7
 2570.7 2577.3
 2577.3 2584.0
 2584.0 2590.7
 2590.7 2597.4
 2597.4 2604.2
 2604.2 2611.0
 2611.0 2617.8
 2617.8 2624.7
 2624.7 2631.6
 2631.6 2638.5
 2638.5 2645.5
 2645.5 2652.5
 2652.5 2659.6
 2659.6 2666.7
 2666.7 2673.8
 2673.8 2681.0
 2681.0 2688.2
 2688.2 2695.4
 2695.4 2702.7
 2702.7 2710.0
 2710.0 2717.4
 2717.4 2724.8
 2724.8 2732.2
 2732.2 2739.7
 2739.7 2747.3
 2747.3 2754.8
 2754.8 2762.4
 2762.4 2770.1
 2770.1 2777.8
 2777.8 2785.5
 2785.5 2793.3
 2793.3 2801.1
 2801.1 2809.0
 2809.0 2816.9
 2816.9 2824.9
 2824.9 2832.9
 2832.9 2840.9
 2840.9 2849.0
 2849.0 2857.1
 2857.1 2865.3
 2865.3 2873.6
 2873.6 2881.8
 2881.8 2890.2
 2890.2 2898.6
 2898.6 2907.0
 2907.0 2915.5
 2915.5 2924.0
 2924.0 2932.6
 2932.6 2941.2
 2941.2 2949.9
 2949.9 2958.6
 2958.6 2967.4
 2967.4 2976.2
 2976.2 2985.1
 2985.1 2994.0
 2994.0 3003.0
 3003.0 3012.0
 3012.0 3021.1
 3021.1 3030.3
 3030.3 3039.5
 3039.5 3048.8
 3048.8 3058.1
 3058.1 3067.5
 3067.5 3076.9
 3076.9 3086.4
 3086.4 3096.0
 3096.0 3105.6
 3105.6 3115.3
 3115.3 3125.0
 3125.0 3134.8
 3134.8 3144.7
 3144.7 3154.6
 3154.6 3164.6
 3164.6 3174.6
 3174.6 3184.7
 3184.7 3194.9
 3194.9 3205.1
 3205.1 3215.4
 3215.4 3225.8
 3225.8 3236.2
 3236.2 3246.8
 3246.8 3257.3
 3257.3 3268.0
 3268.0 3278.7
 3278.7 3289.5
 3289.5 3300.3
 3300.3 3311.3
 3311.3 3322.3
 3322.3 3333.3
 3333.3 3344.5
 3344.5 3355.7
 3355.7 3367.0
 3367.0 3378.4
 3378.4 3389.8
 3389.8 3401.4
 3401.4 3413.0
 3413.0 3424.7
 3424.7 3436.4
 3436.4 3448.3
 3448.3 3460.2
 3460.2 3472.2
 3472.2 3484.3
 3484.3 3496.5
 3496.5 3508.8
 3508.8 3521.1
 3521.1 3533.6
 3533.6 3546.1
 3546.1 3558.7
 3558.7 3571.4
 3571.4 3584.2
 3584.2 3597.1
 3597.1 3610.1
 3610.1 3623.2
 3623.2 3636.4
 3636.4 3649.6
 3649.6 3663.0
 3663.0 3676.5
 3676.5 3690.0
 3690.0 3703.7
 3703.7 3717.5
 3717.5 3731.3
 3731.3 3745.3
 3745.3 3759.4
 3759.4 3773.6
 3773.6 3787.9
 3787.9 3802.3
 3802.3 3816.8
 3816.8 3831.4
 3831.4 3846.2
 3846.2 3861.0
 3861.0 3876.0
 3876.0 3891.1
 3891.1 3906.2
 3906.2 3921.6
 3921.6 3937.0
 3937.0 3952.6
 3952.6 3968.3
 3968.3 3984.1
 3984.1 4000.0
 4000.0 4016.1
 4016.1 4032.3
 4032.3 4048.6
 4048.6 4065.0
 4065.0 4081.6
 4081.6 4098.4
 4098.4 4115.2
 4115.2 4132.2
 4132.2 4149.4
 4149.4 4166.7
 4166.7 4184.1
 4184.1 4201.7
 4201.7 4219.4
 4219.4 4237.3
 4237.3 4255.3
 4255.3 4273.5
 4273.5 4291.8
 4291.8 4310.3
 4310.3 4329.0
 4329.0 4347.8
 4347.8 4366.8
 4366.8 4386.0
 4386.0 4405.3
 4405.3 4424.8
 4424.8 4444.4
 4444.4 4464.3
 4464.3 4484.3
 4484.3 4504.5
 4504.5 4524.9
 4524.9 4545.5
 4545.5 4566.2
 4566.2 4587.2
 4587.2 4608.3
 4608.3 4629.6
 4629.6 4651.2
 4651.2 4672.9
 4672.9 4694.8
 4694.8 4717.0
 4717.0 4739.3
 4739.3 4761.9
 4761.9 4784.7
 4784.7 4807.7
 4807.7 4830.9
 4830.9 4854.4
 4854.4 4878.0
 4878.0 4902.0
 4902.0 4926.1
 4926.1 4950.5
 4950.5 4975.1
 4975.1 5000.0
 5000.0 5025.1
 5025.1 5050.5
 5050.5 5076.1
 5076.1 5102.0
 5102.0 5128.2
 5128.2 5154.6
 5154.6 5181.3
 5181.3 5208.3
 5208.3 5235.6
 5235.6 5263.2
 5263.2 5291.0
 5291.0 5319.1
 5319.1 5347.6
 5347.6 5376.3
 5376.3 5405.4
 5405.4 5434.8
 5434.8 5464.5
 5464.5 5494.5
 5494.5 5524.9
 5524.9 5555.6
 5555.6 5586.6
 5586.6 5618.0
 5618.0 5649.7
 5649.7 5681.8
 5681.8 5714.3
 5714.3 5747.1
 5747.1 5780.3
 5780.3 5814.0
 5814.0 5848.0
 5848.0 5882.4
 5882.4 5917.2
 5917.2 5952.4
 5952.4 5988.0
 5988.0 6024.1
 6024.1 6060.6
 6060.6 6097.6
 6097.6 6135.0
 6135.0 6172.8
 6172.8 6211.2
 6211.2 6250.0
 6250.0 6289.3
 6289.3 6329.1
 6329.1 6369.4
 6369.4 6410.3
 6410.3 6451.6
 6451.6 6493.5
 6493.5 6535.9
 6535.9 6578.9
 6578.9 6622.5
 6622.5 6666.7
 6666.7 6711.4
 6711.4 6756.8
 6756.8 6802.7
 6802.7 6849.3
 6849.3 6896.6
 6896.6 6944.4
 6944.4 6993.0
 6993.0 7042.3
 7042.3 7092.2
 7092.2 7142.9
 7142.9 7194.2
 7194.2 7246.4
 7246.4 7299.3
 7299.3 7352.9
 7352.9 7407.4
 7407.4 7462.7
 7462.7 7518.8
 7518.8 7575.8
 7575.8 7633.6
 7633.6 7692.3
 7692.3 7751.9
 7751.9 7812.5
 7812.5 7874.0
 7874.0 7936.5
 7936.5 8000.0
 8000.0 8064.5
 8064.5 8130.1
 8130.1 8196.7
 8196.7 8264.5
 8264.5 8333.3
 8333.3 8403.4
 8403.4 8474.6
 8474.6 8547.0
 8547.0 8620.7
 8620.7 8695.7
 8695.7 8771.9
 8771.9 8849.6
 8849.6 8928.6
 8928.6 9009.0
 9009.0 9090.9
 9090.9 9174.3
 9174.3 9259.3
 9259.3 9345.8
 9345.8 9434.0
 9434.0 9523.8
 9523.8 9615.4
 9615.4 9708.7
 9708.7 9803.9
 9803.9 9901.0
 9901.0 10000.0